Folder: Color-Screen/spect

Note: spect/auramine.txt
Wavelength (nm)	L01 abs e
220.00	3782.2
220.25	3797.8
220.50	3789.1
220.75	3767.5
221.00	3775.9
221.25	3733.7
221.50	3727.6
221.75	3767.8
222.00	3761.6
222.25	3783.9
222.50	3778.3
222.75	3822.5
223.00	3839.1
223.25	3860.5
223.50	3865.4
223.75	3901.6
224.00	3906.7
224.25	3891.9
224.50	3928.1
224.75	3926.7
225.00	3964.7
225.25	3979.6
225.50	4031.6
225.75	4035.5
226.00	4094.3
226.25	4109.9
226.50	4098.7
226.75	4093.7
227.00	4134.4
227.25	4171.2
227.50	4209.8
227.75	4235.9
228.00	4241.0
228.25	4301.4
228.50	4333.7
228.75	4364.7
229.00	4400.8
229.25	4433.8
229.50	4480.2
229.75	4486.6
230.00	4533.9
230.25	4589.7
230.50	4587.6
230.75	4671.0
231.00	4699.7
231.25	4725.6
231.50	4788.6
231.75	4837.5
232.00	4860.1
232.25	4947.6
232.50	4971.6
232.75	5010.6
233.00	5050.4
233.25	5081.7
233.50	5132.7
233.75	5212.5
234.00	5247.3
234.25	5321.8
234.50	5348.0
234.75	5425.2
235.00	5513.4
235.25	5554.4
235.50	5643.8
235.75	5692.5
236.00	5752.0
236.25	5790.8
236.50	5889.1
236.75	5943.5
237.00	6011.3
237.25	6070.6
237.50	6147.8
237.75	6194.6
238.00	6278.7
238.25	6323.4
238.50	6364.3
238.75	6416.8
239.00	6478.1
239.25	6558.8
239.50	6598.7
239.75	6700.3
240.00	6726.5
240.25	6786.2
240.50	6846.5
240.75	6913.2
241.00	6985.5
241.25	7011.9
241.50	7072.9
241.75	7133.2
242.00	7202.6
242.25	7244.2
242.50	7306.3
242.75	7295.8
243.00	7382.6
243.25	7466.3
243.50	7549.6
243.75	7557.7
244.00	7612.7
244.25	7650.7
244.50	7687.4
244.75	7735.7
245.00	7800.4
245.25	7826.0
245.50	7860.7
245.75	7920.7
246.00	7962.3
246.25	7978.0
246.50	8015.2
246.75	8056.5
247.00	8067.5
247.25	8124.5
247.50	8149.6
247.75	8166.5
248.00	8227.3
248.25	8240.9
248.50	8227.5
248.75	8225.9
249.00	8270.3
249.25	8308.9
249.50	8332.0
249.75	8311.3
250.00	8359.8
250.25	8360.1
250.50	8345.2
250.75	8333.5
251.00	8332.7
251.25	8351.3
251.50	8340.4
251.75	8373.7
252.00	8336.6
252.25	8368.8
252.50	8335.4
252.75	8309.4
253.00	8287.0
253.25	8275.7
253.50	8269.9
253.75	8277.5
254.00	8274.1
254.25	8227.8
254.50	8164.7
254.75	8188.9
255.00	8147.8
255.25	8117.1
255.50	8070.9
255.75	8088.4
256.00	8032.1
256.25	8024.1
256.50	7981.9
256.75	7966.8
257.00	7878.8
257.25	7893.3
257.50	7832.4
257.75	7794.4
258.00	7719.0
258.25	7700.0
258.50	7677.8
258.75	7621.7
259.00	7559.9
259.25	7496.0
259.50	7466.3
259.75	7466.6
260.00	7411.2
260.25	7365.7
260.50	7345.4
260.75	7298.8
261.00	7223.1
261.25	7192.3
261.50	7103.3
261.75	7131.0
262.00	7035.3
262.25	7001.1
262.50	6959.2
262.75	6944.4
263.00	6866.6
263.25	6850.1
263.50	6812.6
263.75	6778.4
264.00	6711.0
264.25	6693.0
264.50	6629.3
264.75	6590.7
265.00	6542.6
265.25	6466.2
265.50	6428.0
265.75	6393.6
266.00	6347.4
266.25	6292.2
266.50	6262.2
266.75	6226.2
267.00	6161.5
267.25	6099.1
267.50	6043.5
267.75	5984.2
268.00	5910.3
268.25	5849.4
268.50	5806.5
268.75	5739.7
269.00	5658.9
269.25	5623.3
269.50	5541.5
269.75	5506.0
270.00	5443.6
270.25	5384.7
270.50	5302.5
270.75	5225.0
271.00	5137.5
271.25	5068.4
271.50	4974.0
271.75	4858.9
272.00	4820.9
272.25	4752.8
272.50	4670.1
272.75	4603.5
273.00

Note: spect/malachite-green.txt
Wavelength (nm)	L02 abs e
220.00	18269
220.25	18384
220.50	17606
220.75	17020
221.00	17617
221.25	16930
221.50	16906
221.75	15769
222.00	15506
222.25	14965
222.50	15225
222.75	15570
223.00	14928
223.25	15155
223.50	14265
223.75	14187
224.00	14187
224.25	13431
224.50	13859
224.75	13736
225.00	12620
225.25	12657
225.50	13143
225.75	12621
226.00	12433
226.25	12881
226.50	12666
226.75	12331
227.00	12269
227.25	12170
227.50	11815
227.75	11702
228.00	12055
228.25	12343
228.50	11898
228.75	12005
229.00	12162
229.25	11519
229.50	11101
229.75	11569
230.00	11686
230.25	11612
230.50	11880
230.75	11635
231.00	11344
231.25	11255
231.50	11208
231.75	11926
232.00	11656
232.25	11555
232.50	10928
232.75	11489
233.00	10638
233.25	11505
233.50	11356
233.75	11729
234.00	11123
234.25	11207
234.50	11444
234.75	11246
235.00	11096
235.25	11225
235.50	11167
235.75	10772
236.00	10490
236.25	10764
236.50	10674
236.75	11551
237.00	10838
237.25	11388
237.50	11467
237.75	11092
238.00	11677
238.25	10861
238.50	10689
238.75	11145
239.00	10961
239.25	11155
239.50	11298
239.75	10305
240.00	10752
240.25	11219
240.50	10875
240.75	10993
241.00	11054
241.25	11052
241.50	11476
241.75	10588
242.00	10752
242.25	10765
242.50	11074
242.75	11308
243.00	10934
243.25	11008
243.50	10783
243.75	11006
244.00	10999
244.25	11148
244.50	10597
244.75	11135
245.00	10491
245.25	11139
245.50	10892
245.75	10932
246.00	10482
246.25	10908
246.50	11206
246.75	10957
247.00	10877
247.25	10522
247.50	10956
247.75	10931
248.00	10931
248.25	11186
248.50	10340
248.75	10232
249.00	10872
249.25	10824
249.50	10545
249.75	10864
250.00	10941
250.25	10283
250.50	10838
250.75	10896
251.00	10679
251.25	10693
251.50	10266
251.75	10735
252.00	10414
252.25	10204
252.50	10365
252.75	9999.5
253.00	10487
253.25	10020
253.50	10400
253.75	10294
254.00	10069
254.25	10288
254.50	9953.8
254.75	10285
255.00	10170
255.25	10737
255.50	10244
255.75	10401
256.00	10346
256.25	10241
256.50	9540.9
256.75	9727.1
257.00	10184
257.25	9910.1
257.50	9806.1
257.75	9931.9
258.00	9220.7
258.25	9135.4
258.50	9430.7
258.75	9454.6
259.00	9060.5
259.25	9191.5
259.50	8762.1
259.75	9501.4
260.00	9343.4
260.25	9049.1
260.50	9395.4
260.75	9333.0
261.00	8663.3
261.25	8371.1
261.50	8737.1
261.75	9079.2
262.00	8817.2
262.25	8494.8
262.50	8204.7
262.75	8748.5
263.00	8182.9
263.25	8168.3
263.50	8522.9
263.75	8262.9
264.00	8743.3
264.25	8588.4
264.50	8630.0
264.75	8143.3
265.00	8015.4
265.25	8453.2
265.50	8278.5
265.75	8129.8
266.00	8327.4
266.25	7509.0
266.50	7714.9
266.75	7893.8
267.00	8267.1
267.25	8178.7
267.50	7954.1
267.75	7787.7
268.00	8019.6
268.25	8212.0
268.50	8228.6
268.75	7893.8
269.00	8526.0
269.25	8156.9
269.50	8160.0
269.75	8027.9
270.00	8649.8
270.25	8109.0
270.50	8157.9
270.75	8061.2
271.00	8347.2
271.25	8184.9
271.50	7917.7
271.75	8608.2
272.00	8477.1
272.25	8415.8
272.50	8371.1
272.75	8342.0
273.00	7987.4
273.25	7856.3
273.50	8659.1
273.75	9001.2
274.00	8812.0
274.25	8553.1
274.50	8862.9
274.75	8648.7
275.00	8527.1
275.25	8449.1
275.50	9042

File: crystal-violet.txt
Wavelength (nm)	L03 abs e
220.00	17396
221.75	13910
223.50	11361
225.25	9847.4
227.00	8818.7
228.75	8305.6
230.50	7971.9
232.25	7762.0
234.00	7885.2
235.75	8361.7
237.50	8920.6
239.25	9686.9
241.00	10760
242.75	11783
244.50	13034
246.25	13871
248.00	14638
249.75	14672
251.50	14284
253.25	13379
255.00	12389
256.75	11395
258.50	10436
260.25	9370.2
262.00	8762.0
263.75	8233.6
265.50	7726.6
267.25	7557.0
269.00	7223.8
270.75	7086.0
272.50	6857.2
274.25	6906.6
276.00	7037.1
277.75	7205.5
279.50	7561.8
281.25	7954.2
283.00	8444.7
284.75	9001.7
286.50	9622.8
288.25	10511
290.00	11313
291.75	12245
293.50	13511
295.25	14267
297.00	15411
298.75	16293
300.50	16940
302.25	17155
304.00	17067
305.75	16603
307.50	15459
309.25	14112
311.00	12345
312.75	10811
314.50	9533.8
316.25	7804.7
318.00	6829.1
319.75	5533.8
321.50	5106.7
323.25	4272.1
325.00	3769.9
326.75	3333.7
328.50	3189.7
330.25	3029.3
332.00	2719.9
333.75	2475.3
335.50	2015.2
337.25	2129.9
339.00	1646.7
340.75	1719.9
342.50	1840.7
344.25	1500.9
346.00	1531.4
347.75	1490.5
349.50	1796.2
351.25	1940.2
353.00	1815.7
354.75	1715.1
356.50	1745.6
358.25	1860.9
360.00	1649.2
361.75	1646.7
363.50	1561.3
365.25	1646.1
367.00	1547.9
368.75	1726.6
370.50	1605.8
372.25	1587.5
374.00	1593.0
375.75	1601.0
377.50	1385.6
379.25	1294.7
381.00	1267.8
382.75	975.58
384.50	840.14
386.25	917.62
388.00	691.88
389.75	779.74
391.50	613.78
393.25	620.49
395.00	716.28
396.75	532.64
398.50	582.67
400.25	800.48
402.00	705.30
403.75	607.68
405.50	585.11
407.25	610.73
409.00	645.51
410.75	618.66
412.50	589.99
414.25	532.64
416.00	816.34
417.75	713.84
419.50	690.05
421.25	746.18
423.00	784.62
424.75	957.28
426.50	995.72
428.25	922.50
430.00	1091.5
431.75	1197.7
433.50	1295.3
435.25	1373.4
437.00	1393.5
438.75	1555.2
440.50	1593.0
442.25	1640.0
444.00	1906.6
445.75	1979.8
447.50	2188.5
449.25	2378.9
451.00	2609.5
452.75	2726.6
454.50	2984.7
456.25	3160.4
458.00	3419.1
459.75	3787.0
461.50	3925.5
463.25	4460.0
465.00	4572.9
466.75	4985.9
468.50	5373.3
470.25	5712.6
472.00	6194.6
473.75	6519.8
475.50	7078.6
477.25	7644.8
479.00	8148.8
480.75	8583.8
482.50	9198.2
484.25	9888.2
486.00	10652
487.75	11263
489.50	11995
491.25	12641
493.00	13338
494.75	14287
496.50	14944
498.25	15935
500.00	17151
501.75	17897
503.50	19172
505.25	20275
507.00	21441
508.75	22764
510.50	24336
512.25	25589
514.00	27042
515.75	28500
517.50	29999
519.25	31453
521.00	32966
522.75	34840
524.50	36169
526.25	37761
528.00	39135
529.75	40743
531.50	41924
533.25	43656
535.00	44526
536.75	45912
538.50	46948
540.25	48045
542.00	48935
543.75	49711
545.50	50516
547.25	51310
549.00	51842
550.75	52336
552.50	52827
554.25	53215
556.00	53827
557.75	54472
559.50	54858
561.25	55669
563.00	56270
564.75	57111
566.50	57686
568.25	59185
570.00	60267
571.75	61681
573.50	63246
575.25	64533
577.00	66326
578.75	68263
580.50	69957
582.25	71646
584.00	73141
585.75	74369
587.50	75182
589.25	75499
591.00	75662
592.75	75181
594.50	74193
596.25	72115
598.00	69972
599.75	67231
601.50	64351
603.25	61110
605.00	57544
606.75	53740
608.50	49653
610.25	45655
612.00	41635
613.75	38011
615.50	34808
617.25	31128
619.00	27754
620.75	24680
622.50	21783
624.25	19180
626.00	16946
627.75	14784
629.50	13018
631.25	11221
633.00	9966.3
634.75	8630.2
636.50	7376.4
638.25	6375.2
640.00	5333.1
641.75	4865.7
643.50	4083.5
645.25	3767.5
647.00	3079.3
648.75	2773.0
650.50	2413.6
652.25	1940.8
654.00	1755.9
655.75	1272.7
657.50	1357.5
659.25	1183.0
661.00	915.79
662.75	840.75
664.50	617.44
666.25	588.16
668.00	511.28
669.75	470.40
671.50	377.06
673.25	231.85
675.00	352.65
676.75	154.36
678.50	283.10
680.25	211.71
682.00	209.88
683.75	278.22
685.50	206.22
687.25	116.53
689.00	43.319
690.75	115.31
692.50	119.58
694.25	219.03
696.00	47.589
697.75	-1.8304
699.50	101.89
700.00	47.589